acc_mean,block,block_c,block_dur,condition,correct,correct_response,endtime,multichar_response,resp_time,response,response_time,response_time_practice_response,row_sel,same,start_end,starttime,stim1,stim2,subject_id,time_practice,trial
0,,0,0.0,,undefined,,,jan,30000.0,enter,1413,,,,,,,,,,0
1,1.0,1,2.694000005722046,test,1,z,47122.900000002235,jan,27305.999994277954,z,2685,,5.0,yes,2688.2000000029802,44434.699999999255,pipe_new_007a.bmp,pipe_new_007a.bmp,,,1
2,1.0,1,4.6529998779296875,test,1,z,49082.699999999255,jan,25347.000122070312,z,1944,,9.0,yes,1954.199999999255,47128.5,pipe_new_013a.bmp,pipe_new_013a.bmp,,,2
3,1.0,1,7.705999851226807,test,1,z,52135.10000000149,jan,22294.000148773193,z,3039,,37.0,yes,3046.900000002235,49088.199999999255,pipe_new_055a.bmp,pipe_new_055a.bmp,,,3
4,1.0,1,13.532000064849854,test,1,z,57961.400000002235,jan,16467.999935150146,z,5813,,1.0,yes,5821.60000000149,52139.800000000745,pipe_new_001a.bmp,pipe_new_001a.bmp,,,4
5,1.0,1,15.625,test,1,m,60054.699999999255,jan,14375.0,m,2081,,38.0,no,2088.39999999851,57966.300000000745,pipe_new_056a.bmp,pipe_new_057a.bmp,,,5
6,1.0,1,16.73199987411499,test,1,m,61161.400000002235,jan,13268.00012588501,m,1092,,30.0,no,1101.7000000029802,60059.699999999255,pipe_new_044a.bmp,pipe_new_045a.bmp,,,6
7,1.0,1,17.546000003814697,test,1,m,61975.5,jan,12453.999996185303,m,800,,24.0,no,809.0,61166.5,pipe_new_035a.bmp,pipe_new_036a.bmp,,,7
8,1.0,1,19.22499990463257,test,1,z,63654.699999999255,jan,10775.000095367432,z,1666,,27.0,yes,1673.8999999985099,61980.800000000745,pipe_new_040a.bmp,pipe_new_040a.bmp,,,8
9,1.0,1,21.264999866485596,test,1,m,65694.60000000149,jan,8735.000133514404,m,2020,,22.0,no,2035.0,63659.60000000149,pipe_new_032a.bmp,pipe_new_033a.bmp,,,9
10,1.0,1,22.22499990463257,test,1,m,66654.5,jan,7775.000095367432,m,939,,32.0,no,954.8999999985099,65699.60000000149,pipe_new_047a.bmp,pipe_new_048a.bmp,,,10
11,1.0,1,23.18499994277954,test,1,m,67614.69999999925,jan,6815.000057220459,m,940,,36.0,no,955.5,66659.19999999925,pipe_new_053a.bmp,pipe_new_054a.bmp,,,11
12,1.0,1,24.625,test,1,z,69054.5,jan,5375.0,z,1421,,11.0,yes,1435.0999999977648,67619.40000000224,pipe_new_016a.bmp,pipe_new_016a.bmp,,,12
12,1.0,1,26.491999864578247,test,0,z,70921.30000000075,jan,3508.000135421753,m,1851,,19.0,yes,1862.199999999255,69059.10000000149,pipe_new_028a.bmp,pipe_new_028a.bmp,,,13
13,1.0,1,29.638000011444092,test,1,z,74067.5,jan,361.9999885559082,z,3137,,35.0,yes,3140.099999997765,70927.40000000224,pipe_new_052a.bmp,pipe_new_052a.bmp,,,14
13,1.0,1,30.01199984550476,test,0,m,74441.19999999925,jan,-11.999845504760742,None,366,,2.0,no,368.79999999701977,74072.40000000224,pipe_new_002a.bmp,pipe_new_003a.bmp,,,15
1,2.0,2,3.052000045776367,test,1,m,79907.40000000224,jan,26947.999954223633,m,3043,,30.0,no,5835.0,74072.40000000224,pipe_new_104a.bmp,pipe_new_105a.bmp,,,1
2,2.0,2,4.546000003814697,test,1,z,81400.90000000224,jan,25453.999996185303,z,1482,,37.0,yes,7328.5,74072.40000000224,pipe_new_115a.bmp,pipe_new_115a.bmp,,,2
3,2.0,2,5.2790000438690186,test,1,z,82134.0,jan,24720.99995613098,z,720,,23.0,yes,8061.599999997765,74072.40000000224,pipe_new_094a.bmp,pipe_new_094a.bmp,,,3
4,2.0,2,6.078999996185303,test,1,m,82934.10000000149,jan,23921.000003814697,m,788,,18.0,no,8861.699999999255,74072.40000000224,pipe_new_086a.bmp,pipe_new_087a.bmp,,,4
5,2.0,2,6.83899998664856,test,1,z,83694.0,jan,23161.00001335144,z,741,,17.0,yes,9621.599999997765,74072.40000000224,pipe_new_085a.bmp,pipe_new_085a.bmp,,,5
6,2.0,2,7.559000015258789,test,1,m,84414.0,jan,22440.99998474121,m,700,,14.0,no,10341.599999997765,74072.40000000224,pipe_new_080a.bmp,pipe_new_081a.bmp,,,6
7,2.0,2,8.73200011253357,test,1,z,85587.19999999925,jan,21267.99988746643,z,1166,,35.0,yes,11514.79999999702,74072.40000000224,pipe_new_112a.bmp,pipe_new_112a.bmp,,,7
8,2.0,2,9.73200011253357,test,1,m,86587.30000000075,jan,20267.99988746643,m,983,,20.0,no,12514.89999999851,74072.40000000224,pipe_new_089a.bmp,pipe_new_090a.bmp,,,8
9,2.0,2,10.932000160217285,test,1,z,87787.19999999925,jan,19067.999839782715,z,1184,,25.0,yes,13714.79999999702,74072.40000000224,pipe_new_097a.bmp,pipe_new_097a.bmp,,,9
10,2.0,2,11.78600001335144,test,1,m,88641.5,jan,18213.99998664856,m,847,,4.0,no,14569.099999997765,74072.40000000224,pipe_new_065a.bmp,pipe_new_066a.bmp,,,10
11,2.0,2,12.625,test,1,m,89480.40000000224,jan,17375.0,m,824,,32.0,no,15408.0,74072.40000000224,pipe_new_107a.bmp,pipe_new_108a.bmp,,,11
12,2.0,2,13.718000173568726,test,1,z,90573.80000000075,jan,16281.999826431274,z,1075,,3.0,yes,16501.39999999851,74072.40000000224,pipe_new_064a.bmp,pipe_new_064a.bmp,,,12
12,2.0,2,14.492000102996826,test,0,z,91347.19999999925,jan,15507.999897003174,m,765,,33.0,yes,17274.79999999702,74072.40000000224,pipe_new_109a.bmp,pipe_new_109a.bmp,,,13
13,2.0,2,20.198000192642212,test,1,z,97053.60000000149,jan,9801.999807357788,z,5688,,13.0,yes,22981.199999999255,74072.40000000224,pipe_new_079a.bmp,pipe_new_079a.bmp,,,14
14,2.0,2,21.265000104904175,test,1,m,98120.30000000075,jan,8734.999895095825,m,1049,,8.0,no,24047.89999999851,74072.40000000224,pipe_new_071a.bmp,pipe_new_072a.bmp,,,15
15,2.0,2,22.212000131607056,test,1,m,99066.90000000224,jan,7787.999868392944,m,932,,36.0,no,24994.5,74072.40000000224,pipe_new_113a.bmp,pipe_new_114a.bmp,,,16
16,2.0,2,23.092000007629395,test,1,z,99947.0,jan,6907.9999923706055,z,863,,39.0,yes,25874.599999997765,74072.40000000224,pipe_new_118a.bmp,pipe_new_118a.bmp,,,17
17,2.0,2,23.97100019454956,test,1,z,100826.69999999925,jan,6028.999805450439,z,866,,11.0,yes,26754.29999999702,74072.40000000224,pipe_new_076a.bmp,pipe_new_076a.bmp,,,18
18,2.0,2,25.478000164031982,test,1,z,102333.30000000075,jan,4521.999835968018,z,1488,,27.0,yes,28260.89999999851,74072.40000000224,pipe_new_100a.bmp,pipe_new_100a.bmp,,,19
19,2.0,2,26.331000089645386,test,1,m,103186.80000000075,jan,3668.9999103546143,m,844,,24.0,no,29114.39999999851,74072.40000000224,pipe_new_095a.bmp,pipe_new_096a.bmp,,,20
20,2.0,2,27.8510000705719,test,1,z,104706.60000000149,jan,2148.9999294281006,z,1512,,31.0,yes,30634.199999999255,74072.40000000224,pipe_new_106a.bmp,pipe_new_106a.bmp,,,21
21,2.0,2,29.278000116348267,test,1,m,106133.19999999925,jan,721.9998836517334,m,1416,,38.0,no,32060.79999999702,74072.40000000224,pipe_new_116a.bmp,pipe_new_117a.bmp,,,22
21,2.0,2,30.011000156402588,test,0,m,106866.69999999925,jan,-11.00015640258789,None,726,,10.0,no,32794.29999999702,74072.40000000224,pipe_new_074a.bmp,pipe_new_075a.bmp,,,23
