acc_sum,block_c,block_dur,condition,correct,correct_response,countdown,datetime,endtime,project,response,response_time,response_time_test1_response,response_time_test2_response,row_sel,same,session_number,start_end,starttime,stim1,stim2,subject_id,task,task_vers,time_test1,time_test2,trial
0,1,0.0,prac,0,m,30000.0,Fri Sep 20 2024 15:22:28 GMT-0500 (Central Daylight Time),44106.29999998212,I,z,1341,,,3,no,1,2861.699999988079,41244.59999999404,QHZXPC,QHZWPC,8001,LC,A,,,1
1,1,0.0,prac,1,z,30000.0,Fri Sep 20 2024 15:22:28 GMT-0500 (Central Daylight Time),46755.5,I,z,1122,,,4,yes,1,2643.9000000059605,44111.59999999404,RSM,RSM,8001,LC,A,,,2
2,1,0.0,prac,1,z,30000.0,Fri Sep 20 2024 15:22:28 GMT-0500 (Central Daylight Time),50537.59999999404,I,z,2250,,,6,yes,1,3778.0999999940395,46759.5,CSDBFPHXZ,CSDBFPHXZ,8001,LC,A,,,3
3,1,0.0,prac,1,m,30000.0,Fri Sep 20 2024 15:22:28 GMT-0500 (Central Daylight Time),53919.90000000596,I,m,1859,,,5,no,1,3377.7000000178814,50542.19999998808,LNDPRSKQB,LNDPRSJQB,8001,LC,A,,,4
4,1,0.0,prac,1,z,30000.0,Fri Sep 20 2024 15:22:28 GMT-0500 (Central Daylight Time),57118.90000000596,I,z,1677,,,2,yes,1,3194.4000000059605,53924.5,NBGFSM,NBGFSM,8001,LC,A,,,5
5,1,0.0,prac,1,m,30000.0,Fri Sep 20 2024 15:22:28 GMT-0500 (Central Daylight Time),60151.19999998808,I,m,1502,,,1,no,1,3027.9000000059605,57123.29999998212,RNV,FNV,8001,LC,A,,,6
1,1,1.2999999523162842,test,1,m,28700.000047683716,Fri Sep 20 2024 15:22:28 GMT-0500 (Central Daylight Time),69298.79999998212,I,m,1281,1281,,1,no,1,1297.0,68001.79999998212,HCF,RCF,8001,LC,A,66158,,1
2,1,3.431999921798706,test,1,m,26568.000078201294,Fri Sep 20 2024 15:22:28 GMT-0500 (Central Daylight Time),71431.19999998808,I,m,2115,2115,,2,no,1,2129.199999988079,69302.0,QTPRJX,QTPNJX,8001,LC,A,67459,,2
2,1,5.664999961853027,test,0,m,24335.000038146973,Fri Sep 20 2024 15:22:28 GMT-0500 (Central Daylight Time),73663.79999998212,I,z,2222,2222,,3,no,1,2229.0,71434.79999998212,MZDYGVGKQ,MZDYGLBKQ,8001,LC,A,69591,,3
3,1,7.414000034332275,test,1,m,22585.999965667725,Fri Sep 20 2024 15:22:28 GMT-0500 (Central Daylight Time),75413.0,I,m,1742,1742,,4,no,1,1745.9000000059605,73667.09999999404,FQTNMK,JQTNMK,8001,LC,A,71824,,4
4,1,9.330999851226807,test,1,z,20669.000148773193,Fri Sep 20 2024 15:22:28 GMT-0500 (Central Daylight Time),77329.59999999404,I,z,1905,1905,,5,yes,1,1913.300000011921,75416.29999998212,CLJ,CLJ,8001,LC,A,73573,,5
5,1,11.312999963760376,test,1,m,18687.000036239624,Fri Sep 20 2024 15:22:28 GMT-0500 (Central Daylight Time),79312.09999999404,I,m,1965,1965,,6,no,1,1979.199999988079,77332.90000000596,JGDMNSVPW,JGZMNSVPW,8001,LC,A,75489,,6
6,1,13.279000043869019,test,1,z,16720.99995613098,Fri Sep 20 2024 15:22:28 GMT-0500 (Central Daylight Time),81278.29999998212,I,z,1958,1958,,7,yes,1,1962.8999999761581,79315.40000000596,FPTVHKCBJ,FPTVHKCBJ,8001,LC,A,77472,,7
7,1,15.128999948501587,test,1,m,14871.000051498413,Fri Sep 20 2024 15:22:28 GMT-0500 (Central Daylight Time),83127.5,I,m,1832,1832,,8,no,1,1846.2000000178814,81281.29999998212,XRPZBS,ZRPBDH,8001,LC,A,79438,,8
8,1,16.34500002861023,test,1,m,13654.99997138977,Fri Sep 20 2024 15:22:28 GMT-0500 (Central Daylight Time),84343.79999998212,I,m,1207,1207,,9,no,1,1213.2999999821186,83130.5,ZSQ,ZSP,8001,LC,A,81287,,9
9,1,18.24399995803833,test,1,z,11756.00004196167,Fri Sep 20 2024 15:22:28 GMT-0500 (Central Daylight Time),86243.0,I,z,1894,1894,,10,yes,1,1895.800000011921,84347.19999998808,MPZRXL,MPZRXL,8001,LC,A,82504,,10
10,1,19.560999870300293,test,1,m,10439.000129699707,Fri Sep 20 2024 15:22:28 GMT-0500 (Central Daylight Time),87559.29999998212,I,m,1307,1307,,11,no,1,1313.199999988079,86246.09999999404,KJH,KRH,8001,LC,A,84402,,11
11,1,22.425999879837036,test,1,z,7574.000120162964,Fri Sep 20 2024 15:22:28 GMT-0500 (Central Daylight Time),90425.19999998808,I,z,2855,2855,,12,yes,1,2863.0,87562.19999998808,SMNHVTFCB,SMNHVTFCB,8001,LC,A,85719,,12
12,1,25.358999967575073,test,1,z,4641.000032424927,Fri Sep 20 2024 15:22:28 GMT-0500 (Central Daylight Time),93357.5,I,z,2917,2917,,13,yes,1,2929.0999999940395,90428.40000000596,KJWTQF,KJWTQF,8001,LC,A,88585,,13
13,1,28.924999952316284,test,1,z,1075.0000476837158,Fri Sep 20 2024 15:22:28 GMT-0500 (Central Daylight Time),96924.19999998808,I,z,3561,3561,,14,yes,1,3563.5999999940395,93360.59999999404,CHDKQGLMB,CHDKQGLMB,8001,LC,A,91517,,14
13,1,30.007999897003174,test,0,z,-7.999897003173828,Fri Sep 20 2024 15:22:28 GMT-0500 (Central Daylight Time),98006.5,I,None,1078,1078,,15,yes,1,1078.5,96928.0,GHQ,GHQ,8001,LC,A,95084,,15
1,2,2.4160001277923584,test,1,z,27583.99987220764,Fri Sep 20 2024 15:22:28 GMT-0500 (Central Daylight Time),103754.40000000596,I,z,2405,,2405.0,1,yes,1,6826.4000000059605,96928.0,PRDBZTYFN,PRDBZTYFN,8001,LC,A,,99497.0,1
2,2,4.365000009536743,test,1,m,25634.999990463257,Fri Sep 20 2024 15:22:28 GMT-0500 (Central Daylight Time),105703.59999999404,I,m,1940,,1940.0,2,no,1,8775.59999999404,96928.0,NCWJDZ,NCMJDZ,8001,LC,A,,101914.0,2
3,2,5.998000144958496,test,1,m,24001.999855041504,Fri Sep 20 2024 15:22:28 GMT-0500 (Central Daylight Time),107336.40000000596,I,m,1614,,1614.0,3,no,1,10408.40000000596,96928.0,KHW,KBW,8001,LC,A,,103864.0,3
4,2,8.114000082015991,test,1,m,21885.99991798401,Fri Sep 20 2024 15:22:28 GMT-0500 (Central Daylight Time),109452.5,I,m,2110,,2110.0,4,no,1,12524.5,96928.0,ZRBGMF,ZRBCMF,8001,LC,A,,105496.0,4
5,2,9.480000019073486,test,1,m,20519.999980926514,Fri Sep 20 2024 15:22:28 GMT-0500 (Central Daylight Time),110818.69999998808,I,m,1362,,1362.0,5,no,1,13890.699999988079,96928.0,BTH,BYH,8001,LC,A,,107612.0,5
6,2,11.896000146865845,test,1,z,18103.999853134155,Fri Sep 20 2024 15:22:28 GMT-0500 (Central Daylight Time),113234.59999999404,I,z,2412,,2412.0,6,yes,1,16306.59999999404,96928.0,XWKQRYCNZ,XWKQRYCNZ,8001,LC,A,,108978.0,6
7,2,14.279000043869019,test,1,z,15720.999956130981,Fri Sep 20 2024 15:22:28 GMT-0500 (Central Daylight Time),115617.40000000596,I,z,2364,,2364.0,7,yes,1,18689.40000000596,96928.0,HNPDLK,HNPDLK,8001,LC,A,,111394.0,7
8,2,16.811000108718872,test,1,m,13188.999891281128,Fri Sep 20 2024 15:22:28 GMT-0500 (Central Daylight Time),118149.69999998808,I,m,2517,,2517.0,8,no,1,21221.69999998808,96928.0,WMQTRSGLZ,WMQTRZGLZ,8001,LC,A,,113777.0,8
9,2,17.960000038146973,test,1,z,12039.999961853027,Fri Sep 20 2024 15:22:28 GMT-0500 (Central Daylight Time),119299.5,I,z,1137,,1137.0,9,yes,1,22371.5,96928.0,JPN,JPN,8001,LC,A,,116309.0,9
10,2,19.64300012588501,test,1,m,10356.99987411499,Fri Sep 20 2024 15:22:28 GMT-0500 (Central Daylight Time),120982.09999999404,I,m,1675,,1675.0,10,no,1,24054.09999999404,96928.0,QLXSVT,QLNSVT,8001,LC,A,,117459.0,10
11,2,21.943000078201294,test,1,z,8056.999921798706,Fri Sep 20 2024 15:22:28 GMT-0500 (Central Daylight Time),123281.69999998808,I,z,2288,,2288.0,11,yes,1,26353.69999998808,96928.0,YXHKZVFPB,YXHKZVFPD,8001,LC,A,,119142.0,11
12,2,23.508000135421753,test,1,z,6491.999864578247,Fri Sep 20 2024 15:22:28 GMT-0500 (Central Daylight Time),124847.69999998808,I,z,1557,,1557.0,12,yes,1,27919.69999998808,96928.0,RJZ,RJZ,8001,LC,A,,121441.0,12
13,2,26.687000036239624,test,1,z,3312.999963760376,Fri Sep 20 2024 15:22:28 GMT-0500 (Central Daylight Time),128026.59999999404,I,z,3175,,3175.0,13,yes,1,31098.59999999404,96928.0,CLNPZD,CLNPZD,8001,LC,A,,123007.0,13
14,2,29.707000017166138,test,1,m,292.9999828338623,Fri Sep 20 2024 15:22:28 GMT-0500 (Central Daylight Time),131045.79999998212,I,m,3012,,3012.0,14,no,1,34117.79999998212,96928.0,DCBPFHXYJ,DCBPFHLYJ,8001,LC,A,,126186.0,14
14,2,30.006999969482422,test,0,m,-6.999969482421875,Fri Sep 20 2024 15:22:28 GMT-0500 (Central Daylight Time),131345.69999998808,I,None,297,,297.0,15,no,1,34417.69999998808,96928.0,MWR,ZWR,8001,LC,A,,129205.0,15
