acc_sum,block_c,block_dur,condition,correct,correct_response,countdown,datetime,endtime,project,response,response_time,response_time_test1_response,response_time_test2_response,row_sel,same,session_number,start_end,starttime,stim1,stim2,subject_id,task,task_vers,time_test1,time_test2,trial
1,1,0.0,prac,1,z,30000.0,Fri Oct 04 2024 10:40:24 GMT-0500 (Central Daylight Time),36659.29999999702,I,z,2165,,,2,yes,1,3694.7999999970198,32964.5,NBGFSM,NBGFSM,8003,LC,A,,,1
2,1,0.0,prac,1,z,30000.0,Fri Oct 04 2024 10:40:24 GMT-0500 (Central Daylight Time),40458.09999999404,I,z,2274,,,6,yes,1,3794.39999999851,36663.69999999553,CSDBFPHXZ,CSDBFPHXZ,8003,LC,A,,,2
3,1,0.0,prac,1,m,30000.0,Fri Oct 04 2024 10:40:24 GMT-0500 (Central Daylight Time),42973.89999999851,I,m,978,,,1,no,1,2510.89999999851,40463.0,RNV,FNV,8003,LC,A,,,3
4,1,0.0,prac,1,z,30000.0,Fri Oct 04 2024 10:40:24 GMT-0500 (Central Daylight Time),45822.89999999851,I,z,1327,,,4,yes,1,2844.7000000029802,42978.19999999553,RSM,RSM,8003,LC,A,,,4
4,1,0.0,prac,0,m,30000.0,Fri Oct 04 2024 10:40:24 GMT-0500 (Central Daylight Time),50588.29999999702,I,z,3230,,,5,no,1,4760.79999999702,45827.5,LNDPRSKQB,LNDPRSJQB,8003,LC,A,,,5
4,1,0.0,prac,0,m,30000.0,Fri Oct 04 2024 10:40:24 GMT-0500 (Central Daylight Time),54403.59999999404,I,z,2281,,,3,no,1,3810.89999999851,50592.69999999553,QHZXPC,QHZWPC,8003,LC,A,,,6
1,1,1.749000072479248,test,1,m,28250.999927520752,Fri Oct 04 2024 10:40:24 GMT-0500 (Central Daylight Time),66199.69999999553,I,m,1740,1740,,1,no,1,1745.8999999985099,64453.79999999702,HCF,RCF,8003,LC,A,61634,,1
2,1,4.578000068664551,test,1,m,25421.99993133545,Fri Oct 04 2024 10:40:24 GMT-0500 (Central Daylight Time),69029.5,I,m,2809,2809,,2,no,1,2826.0,66203.5,QTPRJX,QTPNJX,8003,LC,A,63384,,2
2,1,7.13100004196167,test,0,m,22868.99995803833,Fri Oct 04 2024 10:40:24 GMT-0500 (Central Daylight Time),71581.79999999702,I,z,2536,2536,,3,no,1,2548.2999999970198,69033.5,MZDYGVGKQ,MZDYGLBKQ,8003,LC,A,66214,,3
3,1,8.21399998664856,test,1,m,21786.00001335144,Fri Oct 04 2024 10:40:24 GMT-0500 (Central Daylight Time),72664.89999999851,I,m,1064,1064,,4,no,1,1079.8999999985099,71585.0,FQTNMK,JQTNMK,8003,LC,A,68766,,4
4,1,10.062999963760376,test,1,z,19937.000036239624,Fri Oct 04 2024 10:40:24 GMT-0500 (Central Daylight Time),74514.09999999404,I,z,1829,1829,,5,yes,1,1845.8999999985099,72668.19999999553,CLJ,CLJ,8003,LC,A,69849,,5
5,1,13.195000171661377,test,1,m,16804.999828338623,Fri Oct 04 2024 10:40:24 GMT-0500 (Central Daylight Time),77646.29999999702,I,m,3124,3124,,6,no,1,3129.10000000149,74517.19999999553,JGDMNSVPW,JGZMNSVPW,8003,LC,A,71698,,6
6,1,16.74399995803833,test,1,z,13256.00004196167,Fri Oct 04 2024 10:40:24 GMT-0500 (Central Daylight Time),81195.29999999702,I,z,3536,3536,,7,yes,1,3545.7000000029802,77649.59999999404,FPTVHKCBJ,FPTVHKCBJ,8003,LC,A,74830,,7
7,1,19.177000045776367,test,1,m,10822.999954223633,Fri Oct 04 2024 10:40:24 GMT-0500 (Central Daylight Time),83627.79999999702,I,m,2420,2420,,8,no,1,2429.10000000149,81198.69999999553,XRPZBS,ZRPBDH,8003,LC,A,78379,,8
8,1,20.593000173568726,test,1,m,9406.999826431274,Fri Oct 04 2024 10:40:24 GMT-0500 (Central Daylight Time),85044.19999999553,I,m,1403,1403,,9,no,1,1413.1000000014901,83631.09999999404,ZSQ,ZSP,8003,LC,A,80811,,9
9,1,23.242000102996826,test,1,z,6757.999897003174,Fri Oct 04 2024 10:40:24 GMT-0500 (Central Daylight Time),87693.29999999702,I,z,2642,2642,,10,yes,1,2645.39999999851,85047.89999999851,MPZRXL,MPZRXL,8003,LC,A,82228,,10
10,1,24.492000102996826,test,1,m,5507.999897003174,Fri Oct 04 2024 10:40:24 GMT-0500 (Central Daylight Time),88942.69999999553,I,m,1233,1233,,11,no,1,1246.1000000014901,87696.59999999404,KJH,KRH,8003,LC,A,84877,,11
11,1,28.11899995803833,test,1,z,1881.00004196167,Fri Oct 04 2024 10:40:24 GMT-0500 (Central Daylight Time),92569.59999999404,I,z,3476,3476,,12,yes,1,3623.89999999851,88945.69999999553,SMNHVTFCB,SMNHVTFCB,8003,LC,A,86126,,12
11,1,30.006999969482422,test,0,z,-6.999969482421875,Fri Oct 04 2024 10:40:24 GMT-0500 (Central Daylight Time),94457.69999999553,I,None,1885,1885,,13,yes,1,1884.7999999970198,92572.89999999851,KJWTQF,KJWTQF,8003,LC,A,89753,,13
1,2,2.683000087738037,test,1,z,27316.999912261963,Fri Oct 04 2024 10:40:24 GMT-0500 (Central Daylight Time),101539.09999999404,I,z,2663,,2663.0,1,yes,1,8966.19999999553,92572.89999999851,PRDBZTYFN,PRDBZTYFN,8003,LC,A,,96040.0,1
2,2,4.716000080108643,test,1,m,25283.999919891357,Fri Oct 04 2024 10:40:24 GMT-0500 (Central Daylight Time),103571.5,I,m,2020,,2020.0,2,no,1,10998.60000000149,92572.89999999851,NCWJDZ,NCMJDZ,8003,LC,A,,98723.0,2
3,2,6.0980000495910645,test,1,m,23901.999950408936,Fri Oct 04 2024 10:40:24 GMT-0500 (Central Daylight Time),104954.5,I,m,1364,,1364.0,3,no,1,12381.60000000149,92572.89999999851,KHW,KBW,8003,LC,A,,100755.0,3
3,2,9.664000034332275,test,0,m,20335.999965667725,Fri Oct 04 2024 10:40:24 GMT-0500 (Central Daylight Time),108519.89999999851,I,z,3548,,3548.0,4,no,1,15947.0,92572.89999999851,ZRBGMF,ZRBCMF,8003,LC,A,,102138.0,4
4,2,10.647000074386597,test,1,m,19352.999925613403,Fri Oct 04 2024 10:40:24 GMT-0500 (Central Daylight Time),109503.09999999404,I,m,974,,974.0,5,no,1,16930.19999999553,92572.89999999851,BTH,BYH,8003,LC,A,,105704.0,5
5,2,13.09600019454956,test,1,z,16903.99980545044,Fri Oct 04 2024 10:40:24 GMT-0500 (Central Daylight Time),111952.39999999851,I,z,2439,,2439.0,6,yes,1,19379.5,92572.89999999851,XWKQRYCNZ,XWKQRYCNZ,8003,LC,A,,106687.0,6
6,2,15.180000066757202,test,1,z,14819.999933242798,Fri Oct 04 2024 10:40:24 GMT-0500 (Central Daylight Time),114036.0,I,z,2070,,2070.0,7,yes,1,21463.10000000149,92572.89999999851,HNPDLK,HNPDLK,8003,LC,A,,109135.0,7
6,2,17.811000108718872,test,0,m,12188.999891281128,Fri Oct 04 2024 10:40:24 GMT-0500 (Central Daylight Time),116667.09999999404,I,z,2627,,2627.0,8,no,1,24094.19999999553,92572.89999999851,WMQTRSGLZ,WMQTRZGLZ,8003,LC,A,,111219.0,8
7,2,19.777000188827515,test,1,z,10222.999811172485,Fri Oct 04 2024 10:40:24 GMT-0500 (Central Daylight Time),118633.5,I,z,1956,,1956.0,9,yes,1,26060.60000000149,92572.89999999851,JPN,JPN,8003,LC,A,,113850.0,9
7,2,22.04300022125244,test,0,m,7956.999778747559,Fri Oct 04 2024 10:40:24 GMT-0500 (Central Daylight Time),120899.29999999702,I,z,2261,,2261.0,10,no,1,28326.39999999851,92572.89999999851,QLXSVT,QLNSVT,8003,LC,A,,115817.0,10
7,2,23.909000158309937,test,0,z,6090.9998416900635,Fri Oct 04 2024 10:40:24 GMT-0500 (Central Daylight Time),122765.5,I,m,1851,,1851.0,11,yes,1,30192.60000000149,92572.89999999851,YXHKZVFPB,YXHKZVFPD,8003,LC,A,,118082.0,11
8,2,25.276000022888184,test,1,z,4723.999977111816,Fri Oct 04 2024 10:40:24 GMT-0500 (Central Daylight Time),124131.89999999851,I,z,1353,,1353.0,12,yes,1,31559.0,92572.89999999851,RJZ,RJZ,8003,LC,A,,119949.0,12
9,2,27.175000190734863,test,1,z,2824.9998092651367,Fri Oct 04 2024 10:40:24 GMT-0500 (Central Daylight Time),126031.19999999553,I,z,1882,,1882.0,13,yes,1,33458.29999999702,92572.89999999851,CLNPZD,CLNPZD,8003,LC,A,,121316.0,13
9,2,29.258000135421753,test,0,m,741.9998645782471,Fri Oct 04 2024 10:40:24 GMT-0500 (Central Daylight Time),128113.89999999851,I,z,2064,,2064.0,14,no,1,35541.0,92572.89999999851,DCBPFHXYJ,DCBPFHLYJ,8003,LC,A,,123214.0,14
9,2,30.007000207901,test,0,m,-7.000207901000977,Fri Oct 04 2024 10:40:24 GMT-0500 (Central Daylight Time),128863.5,I,None,746,,746.0,15,no,1,36290.60000000149,92572.89999999851,MWR,ZWR,8003,LC,A,,125297.0,15
