acc_mean,block,block_c,block_dur,condition,correct,correct_response,endtime,multichar_response,resp_time,response,response_time,response_time_practice_response,row_sel,same,start_end,starttime,stim1,stim2,subject_id,time_practice,trial
0,,0,0.0,,undefined,,,hc,30000.0,enter,2098,,,,,,,,,,0
1,1.0,1,0.8519999980926514,test,1,m,47006.299999952316,hc,29148.00000190735,m,830,,26.0,no,842.3999998569489,46163.90000009537,pipe_new_038a.bmp,pipe_new_039a.bmp,,,1
2,1.0,1,1.8020000457763672,test,1,m,47955.5,hc,28197.999954223633,m,925,,38.0,no,941.0999999046326,47014.40000009537,pipe_new_056a.bmp,pipe_new_057a.bmp,,,2
3,1.0,1,2.453000068664551,test,1,z,48607.0,hc,27546.99993133545,z,633,,21.0,yes,645.0,47962.0,pipe_new_031a.bmp,pipe_new_031a.bmp,,,3
4,1.0,1,3.3359999656677246,test,1,z,49489.700000047684,hc,26664.000034332275,z,860,,1.0,yes,875.1000001430511,48614.59999990463,pipe_new_001a.bmp,pipe_new_001a.bmp,,,4
5,1.0,1,4.021000146865845,test,1,z,50174.59999990463,hc,25978.999853134155,z,674,,13.0,yes,677.1999998092651,49497.40000009537,pipe_new_019a.bmp,pipe_new_019a.bmp,,,5
6,1.0,1,4.855000019073486,test,1,z,51008.40000009537,hc,25144.999980926514,z,816,,23.0,yes,826.9000000953674,50181.5,pipe_new_034a.bmp,pipe_new_034a.bmp,,,6
7,1.0,1,5.439000129699707,test,1,m,51592.700000047684,hc,24560.999870300293,m,572,,18.0,no,578.7000000476837,51014.0,pipe_new_026a.bmp,pipe_new_027a.bmp,,,7
8,1.0,1,6.106000185012817,test,1,m,52259.700000047684,hc,23893.999814987183,m,650,,10.0,no,659.2000000476837,51600.5,pipe_new_014a.bmp,pipe_new_015a.bmp,,,8
9,1.0,1,6.672000169754028,test,1,m,52826.0,hc,23327.99983024597,m,553,,2.0,no,560.0999999046326,52265.90000009537,pipe_new_002a.bmp,pipe_new_003a.bmp,,,9
10,1.0,1,7.371999979019165,test,1,z,53525.799999952316,hc,22628.000020980835,z,691,,11.0,yes,693.7000000476837,52832.09999990463,pipe_new_016a.bmp,pipe_new_016a.bmp,,,10
10,1.0,1,7.940000057220459,test,0,z,54093.90000009537,hc,22059.99994277954,m,550,,19.0,yes,561.1000001430511,53532.799999952316,pipe_new_028a.bmp,pipe_new_028a.bmp,,,11
11,1.0,1,9.057000160217285,test,1,z,55210.90000009537,hc,20942.999839782715,z,1102,,15.0,yes,1110.2000000476837,54100.700000047684,pipe_new_022a.bmp,pipe_new_022a.bmp,,,12
12,1.0,1,9.624000072479248,test,1,z,55778.0,hc,20375.999927520752,z,549,,5.0,yes,563.7999999523163,55214.200000047684,pipe_new_007a.bmp,pipe_new_007a.bmp,,,13
13,1.0,1,10.275000095367432,test,1,z,56429.0,hc,19724.99990463257,z,628,,35.0,yes,646.2999999523163,55782.700000047684,pipe_new_052a.bmp,pipe_new_052a.bmp,,,14
14,1.0,1,10.842000007629395,test,1,m,56995.5,hc,19157.999992370605,m,543,,20.0,no,559.7999999523163,56435.700000047684,pipe_new_029a.bmp,pipe_new_030a.bmp,,,15
15,1.0,1,11.659000158309937,test,1,z,57813.0,hc,18340.999841690063,z,802,,9.0,yes,809.0999999046326,57003.90000009537,pipe_new_013a.bmp,pipe_new_013a.bmp,,,16
16,1.0,1,12.2260000705719,test,1,m,58379.799999952316,hc,17773.9999294281,m,548,,6.0,no,564.0,57815.799999952316,pipe_new_008a.bmp,pipe_new_009a.bmp,,,17
17,1.0,1,13.028000116348267,test,1,z,59181.40000009537,hc,16971.999883651733,z,794,,39.0,yes,795.6000001430511,58385.799999952316,pipe_new_058a.bmp,pipe_new_058a.bmp,,,18
18,1.0,1,13.694000005722046,test,1,m,59847.90000009537,hc,16305.999994277954,m,646,,14.0,no,659.6000001430511,59188.299999952316,pipe_new_020a.bmp,pipe_new_021a.bmp,,,19
19,1.0,1,14.378000020980835,test,1,z,60531.5,hc,15621.999979019165,z,661,,37.0,yes,677.4000000953674,59854.09999990463,pipe_new_055a.bmp,pipe_new_055a.bmp,,,20
20,1.0,1,15.045000076293945,test,1,z,61197.90000009537,hc,14954.999923706055,z,657,,25.0,yes,659.6000001430511,60538.299999952316,pipe_new_037a.bmp,pipe_new_037a.bmp,,,21
21,1.0,1,15.797000169754028,test,1,z,61950.0,hc,14202.999830245972,z,748,,31.0,yes,750.0,61200.0,pipe_new_046a.bmp,pipe_new_046a.bmp,,,22
22,1.0,1,16.46399998664856,test,1,m,62617.09999990463,hc,13536.00001335144,m,645,,34.0,no,659.0999999046326,61958.0,pipe_new_050a.bmp,pipe_new_051a.bmp,,,23
22,1.0,1,17.147000074386597,test,0,m,63300.40000009537,hc,12852.999925613403,z,659,,24.0,no,675.7000000476837,62624.700000047684,pipe_new_035a.bmp,pipe_new_036a.bmp,,,24
23,1.0,1,17.880000114440918,test,1,z,64033.299999952316,hc,12119.999885559082,z,710,,33.0,yes,726.2000000476837,63307.09999990463,pipe_new_049a.bmp,pipe_new_049a.bmp,,,25
24,1.0,1,18.532999992370605,test,1,m,64685.700000047684,hc,11467.000007629395,m,648,,4.0,no,650.2000000476837,64035.5,pipe_new_005a.bmp,pipe_new_006a.bmp,,,26
25,1.0,1,19.89900016784668,test,1,m,66051.79999995232,hc,10100.99983215332,m,1349,,22.0,no,1360.2000000476837,64691.59999990463,pipe_new_032a.bmp,pipe_new_033a.bmp,,,27
26,1.0,1,20.683000087738037,test,1,m,66835.90000009537,hc,9316.999912261963,m,773,,30.0,no,781.7000000476837,66054.20000004768,pipe_new_044a.bmp,pipe_new_045a.bmp,,,28
27,1.0,1,21.383000135421753,test,1,m,67536.40000009537,hc,8616.999864578247,m,684,,28.0,no,698.2000000476837,66838.20000004768,pipe_new_041a.bmp,pipe_new_042a.bmp,,,29
28,1.0,1,22.117000102996826,test,1,z,68270.09999990463,hc,7882.999897003174,z,720,,3.0,yes,731.5999999046326,67538.5,pipe_new_004a.bmp,pipe_new_004a.bmp,,,30
29,1.0,1,23.301000118255615,test,1,z,69454.20000004768,hc,6698.999881744385,z,1170,,27.0,yes,1181.7999999523163,68272.40000009537,pipe_new_040a.bmp,pipe_new_040a.bmp,,,31
30,1.0,1,23.986000061035156,test,1,m,70139.0,hc,6013.999938964844,m,674,,12.0,no,682.7000000476837,69456.29999995232,pipe_new_017a.bmp,pipe_new_018a.bmp,,,32
31,1.0,1,24.835999965667725,test,1,z,70989.29999995232,hc,5164.000034332275,z,845,,7.0,yes,848.0999999046326,70141.20000004768,pipe_new_010a.bmp,pipe_new_010a.bmp,,,33
32,1.0,1,25.45300006866455,test,1,m,71606.09999990463,hc,4546.999931335449,m,602,,40.0,no,614.1999998092651,70991.90000009537,pipe_new_059a.bmp,pipe_new_060a.bmp,,,34
33,1.0,1,26.03700017929077,test,1,m,72189.70000004768,hc,3962.9998207092285,m,570,,36.0,no,581.6000001430511,71608.09999990463,pipe_new_053a.bmp,pipe_new_054a.bmp,,,35
34,1.0,1,26.604000091552734,test,1,m,72756.59999990463,hc,3395.9999084472656,m,554,,32.0,no,564.5999999046326,72192.0,pipe_new_047a.bmp,pipe_new_048a.bmp,,,36
35,1.0,1,27.15400004386902,test,1,m,73307.40000009537,hc,2845.9999561309814,m,532,,16.0,no,548.6000001430511,72758.79999995232,pipe_new_023a.bmp,pipe_new_024a.bmp,,,37
36,1.0,1,27.754000186920166,test,1,z,73907.40000009537,hc,2245.999813079834,z,597,,29.0,yes,598.0,73309.40000009537,pipe_new_043a.bmp,pipe_new_043a.bmp,,,38
37,1.0,1,28.455000162124634,test,1,z,74608.29999995232,hc,1544.9998378753662,z,685,,17.0,yes,698.8999998569489,73909.40000009537,pipe_new_025a.bmp,pipe_new_025a.bmp,,,39
38,1.0,1,28.972000122070312,test,1,m,75125.29999995232,hc,1027.9998779296875,m,504,,8.0,no,515.0,74610.29999995232,pipe_new_011a.bmp,pipe_new_012a.bmp,,,40
1,2.0,2,0.8670001029968262,test,1,z,80997.5,hc,29132.999897003174,z,859,,15.0,yes,6387.200000047684,74610.29999995232,pipe_new_082a.bmp,pipe_new_082a.bmp,,,1
2,2.0,2,1.4509999752044678,test,1,z,81581.20000004768,hc,28549.000024795532,z,567,,17.0,yes,6970.900000095367,74610.29999995232,pipe_new_085a.bmp,pipe_new_085a.bmp,,,2
3,2.0,2,2.1679999828338623,test,1,m,82298.5,hc,27832.000017166138,m,707,,24.0,no,7688.200000047684,74610.29999995232,pipe_new_095a.bmp,pipe_new_096a.bmp,,,3
4,2.0,2,2.753000020980835,test,1,m,82882.70000004768,hc,27246.999979019165,m,570,,20.0,no,8272.400000095367,74610.29999995232,pipe_new_089a.bmp,pipe_new_090a.bmp,,,4
5,2.0,2,3.386000156402588,test,1,m,83516.59999990463,hc,26613.999843597412,m,609,,12.0,no,8906.299999952316,74610.29999995232,pipe_new_077a.bmp,pipe_new_078a.bmp,,,5
6,2.0,2,3.9700000286102295,test,1,m,84100.0,hc,26029.99997138977,m,565,,4.0,no,9489.700000047684,74610.29999995232,pipe_new_065a.bmp,pipe_new_066a.bmp,,,6
7,2.0,2,4.486000061035156,test,1,m,84616.40000009537,hc,25513.999938964844,m,494,,26.0,no,10006.100000143051,74610.29999995232,pipe_new_098a.bmp,pipe_new_099a.bmp,,,7
8,2.0,2,4.986999988555908,test,1,m,85117.29999995232,hc,25013.00001144409,m,491,,8.0,no,10507.0,74610.29999995232,pipe_new_071a.bmp,pipe_new_072a.bmp,,,8
9,2.0,2,5.588000059127808,test,1,z,85717.70000004768,hc,24411.999940872192,z,593,,35.0,yes,11107.400000095367,74610.29999995232,pipe_new_112a.bmp,pipe_new_112a.bmp,,,9
10,2.0,2,6.321000099182129,test,1,m,86451.59999990463,hc,23678.99990081787,m,723,,36.0,no,11841.299999952316,74610.29999995232,pipe_new_113a.bmp,pipe_new_114a.bmp,,,10
11,2.0,2,6.805000066757202,test,1,z,86934.90000009537,hc,23194.999933242798,z,473,,31.0,yes,12324.600000143051,74610.29999995232,pipe_new_106a.bmp,pipe_new_106a.bmp,,,11
12,2.0,2,7.322000026702881,test,1,z,87452.59999990463,hc,22677.99997329712,z,499,,9.0,yes,12842.299999952316,74610.29999995232,pipe_new_073a.bmp,pipe_new_073a.bmp,,,12
13,2.0,2,7.83899998664856,test,1,m,87968.90000009537,hc,22161.00001335144,m,493,,14.0,no,13358.600000143051,74610.29999995232,pipe_new_080a.bmp,pipe_new_081a.bmp,,,13
14,2.0,2,8.756999969482422,test,1,z,88887.09999990463,hc,21243.000030517578,z,899,,23.0,yes,14276.799999952316,74610.29999995232,pipe_new_094a.bmp,pipe_new_094a.bmp,,,14
15,2.0,2,9.207000017166138,test,1,z,89337.40000009537,hc,20792.999982833862,z,428,,25.0,yes,14727.100000143051,74610.29999995232,pipe_new_097a.bmp,pipe_new_097a.bmp,,,15
16,2.0,2,9.708000183105469,test,1,m,89838.0,hc,20291.99981689453,m,482,,32.0,no,15227.700000047684,74610.29999995232,pipe_new_107a.bmp,pipe_new_108a.bmp,,,16
16,2.0,2,10.241000175476074,test,0,m,90371.5,hc,19758.999824523926,z,517,,30.0,no,15761.200000047684,74610.29999995232,pipe_new_104a.bmp,pipe_new_105a.bmp,,,17
17,2.0,2,11.192000150680542,test,1,m,91322.29999995232,hc,18807.999849319458,m,935,,28.0,no,16712.0,74610.29999995232,pipe_new_101a.bmp,pipe_new_102a.bmp,,,18
18,2.0,2,11.809000015258789,test,1,m,91939.20000004768,hc,18190.99998474121,m,592,,34.0,no,17328.900000095367,74610.29999995232,pipe_new_110a.bmp,pipe_new_111a.bmp,,,19
19,2.0,2,12.358999967575073,test,1,z,92489.5,hc,17641.000032424927,z,530,,19.0,yes,17879.200000047684,74610.29999995232,pipe_new_088a.bmp,pipe_new_088a.bmp,,,20
20,2.0,2,13.378000020980835,test,1,m,93507.70000004768,hc,16621.999979019165,m,1003,,2.0,no,18897.400000095367,74610.29999995232,pipe_new_062a.bmp,pipe_new_063a.bmp,,,21
21,2.0,2,13.944000005722046,test,1,z,94074.0,hc,16055.999994277954,z,555,,27.0,yes,19463.700000047684,74610.29999995232,pipe_new_100a.bmp,pipe_new_100a.bmp,,,22
22,2.0,2,14.61300015449524,test,1,z,94742.79999995232,hc,15386.99984550476,z,659,,1.0,yes,20132.5,74610.29999995232,pipe_new_061a.bmp,pipe_new_061a.bmp,,,23
23,2.0,2,15.245000123977661,test,1,z,95375.5,hc,14754.999876022339,z,612,,13.0,yes,20765.200000047684,74610.29999995232,pipe_new_079a.bmp,pipe_new_079a.bmp,,,24
24,2.0,2,15.896000146865845,test,1,z,96025.59999990463,hc,14103.999853134155,z,635,,33.0,yes,21415.299999952316,74610.29999995232,pipe_new_109a.bmp,pipe_new_109a.bmp,,,25
25,2.0,2,16.67900013923645,test,1,z,96809.29999995232,hc,13320.99986076355,z,762,,7.0,yes,22199.0,74610.29999995232,pipe_new_070a.bmp,pipe_new_070a.bmp,,,26
26,2.0,2,17.38100004196167,test,1,m,97511.09999990463,hc,12618.99995803833,m,688,,18.0,no,22900.799999952316,74610.29999995232,pipe_new_086a.bmp,pipe_new_087a.bmp,,,27
27,2.0,2,18.049000024795532,test,1,z,98178.70000004768,hc,11950.999975204468,z,650,,3.0,yes,23568.400000095367,74610.29999995232,pipe_new_064a.bmp,pipe_new_064a.bmp,,,28
28,2.0,2,18.680000066757202,test,1,m,98809.90000009537,hc,11319.999933242798,m,615,,6.0,no,24199.60000014305,74610.29999995232,pipe_new_068a.bmp,pipe_new_069a.bmp,,,29
29,2.0,2,19.249000072479248,test,1,m,99379.40000009537,hc,10750.999927520752,m,553,,40.0,no,24769.10000014305,74610.29999995232,pipe_new_119a.bmp,pipe_new_120a.bmp,,,30
30,2.0,2,19.949000120162964,test,1,z,100078.79999995232,hc,10050.999879837036,z,688,,29.0,yes,25468.5,74610.29999995232,pipe_new_103a.bmp,pipe_new_103a.bmp,,,31
30,2.0,2,20.749000072479248,test,0,z,100879.20000004768,hc,9250.999927520752,m,784,,11.0,yes,26268.900000095367,74610.29999995232,pipe_new_076a.bmp,pipe_new_076a.bmp,,,32
31,2.0,2,21.517000198364258,test,1,z,101647.0,hc,8482.999801635742,z,756,,5.0,yes,27036.700000047684,74610.29999995232,pipe_new_067a.bmp,pipe_new_067a.bmp,,,33
32,2.0,2,22.100000143051147,test,1,m,102230.29999995232,hc,7899.9998569488525,m,564,,10.0,no,27620.0,74610.29999995232,pipe_new_074a.bmp,pipe_new_075a.bmp,,,34
33,2.0,2,22.917999982833862,test,1,z,103047.90000009537,hc,7082.000017166138,z,812,,37.0,yes,28437.60000014305,74610.29999995232,pipe_new_115a.bmp,pipe_new_115a.bmp,,,35
34,2.0,2,23.551000118255615,test,1,z,103681.20000004768,hc,6448.999881744385,z,624,,39.0,yes,29070.900000095367,74610.29999995232,pipe_new_118a.bmp,pipe_new_118a.bmp,,,36
35,2.0,2,24.18500018119812,test,1,z,104315.09999990463,hc,5814.99981880188,z,611,,21.0,yes,29704.799999952316,74610.29999995232,pipe_new_091a.bmp,pipe_new_091a.bmp,,,37
36,2.0,2,24.903000116348267,test,1,m,105032.79999995232,hc,5096.999883651733,m,697,,16.0,no,30422.5,74610.29999995232,pipe_new_083a.bmp,pipe_new_084a.bmp,,,38
37,2.0,2,25.403000116348267,test,1,m,105533.59999990463,hc,4596.999883651733,m,482,,38.0,no,30923.299999952316,74610.29999995232,pipe_new_116a.bmp,pipe_new_117a.bmp,,,39
38,2.0,2,26.003000020980835,test,1,m,106133.40000009537,hc,3996.999979019165,m,584,,22.0,no,31523.10000014305,74610.29999995232,pipe_new_092a.bmp,pipe_new_093a.bmp,,,40
