acc_mean,block,block_c,block_dur,condition,correct,correct_response,endtime,multichar_response,resp_time,response,response_time,response_time_practice_response,row_sel,same,start_end,starttime,stim1,stim2,subject_id,time_practice,trial
0,,0,0.0,,undefined,,,bmadz,30000.0,enter,1671,,,,,,,,,,0
1,1.0,1,1.625,test,1,z,31668.30000001192,bmadz,28375.0,z,1611,,39.0,yes,1620.1000000238419,30048.19999998808,pipe_new_058a.bmp,pipe_new_058a.bmp,,,1
2,1.0,1,2.572000026702881,test,1,m,32614.899999976158,bmadz,27427.99997329712,m,935,,32.0,no,940.5999999642372,31674.30000001192,pipe_new_047a.bmp,pipe_new_048a.bmp,,,2
3,1.0,1,3.611999988555908,test,1,z,33654.60000002384,bmadz,26388.00001144409,z,1030,,7.0,yes,1034.4000000357628,32620.19999998808,pipe_new_010a.bmp,pipe_new_010a.bmp,,,3
4,1.0,1,4.638000011444092,test,1,z,34681.19999998808,bmadz,25361.99998855591,z,1008,,17.0,yes,1021.3999999761581,33659.80000001192,pipe_new_025a.bmp,pipe_new_025a.bmp,,,4
5,1.0,1,5.797999858856201,test,1,z,35841.19999998808,bmadz,24202.0001411438,z,1151,,11.0,yes,1154.800000011921,34686.39999997616,pipe_new_016a.bmp,pipe_new_016a.bmp,,,5
6,1.0,1,6.572000026702881,test,1,m,36614.5,bmadz,23427.99997329712,m,756,,38.0,no,768.3999999761581,35846.10000002384,pipe_new_056a.bmp,pipe_new_057a.bmp,,,6
7,1.0,1,7.638000011444092,test,1,m,37681.0,bmadz,22361.99998855591,m,1046,,28.0,no,1061.1000000238419,36619.89999997616,pipe_new_041a.bmp,pipe_new_042a.bmp,,,7
8,1.0,1,8.358000040054321,test,1,z,38401.19999998808,bmadz,21641.99995994568,z,711,,15.0,yes,715.3999999761581,37685.80000001192,pipe_new_022a.bmp,pipe_new_022a.bmp,,,8
9,1.0,1,9.065000057220459,test,1,m,39107.80000001192,bmadz,20934.99994277954,m,692,,36.0,no,701.5,38406.30000001192,pipe_new_053a.bmp,pipe_new_054a.bmp,,,9
10,1.0,1,9.878000020980835,test,1,m,39921.10000002384,bmadz,20121.999979019165,m,804,,14.0,no,808.1000000238419,39113.0,pipe_new_020a.bmp,pipe_new_021a.bmp,,,10
11,1.0,1,10.51799988746643,test,1,z,40561.10000002384,bmadz,19482.00011253357,z,621,,33.0,yes,634.9000000357628,39926.19999998808,pipe_new_049a.bmp,pipe_new_049a.bmp,,,11
12,1.0,1,11.29200005531311,test,1,m,41334.5,bmadz,18707.99994468689,m,755,,40.0,no,768.3999999761581,40566.10000002384,pipe_new_059a.bmp,pipe_new_060a.bmp,,,12
13,1.0,1,12.090999841690063,test,1,m,42134.39999997616,bmadz,17909.000158309937,m,783,,2.0,no,795.0999999642372,41339.30000001192,pipe_new_002a.bmp,pipe_new_003a.bmp,,,13
14,1.0,1,12.85099983215332,test,1,z,42894.5,bmadz,17149.00016784668,z,744,,5.0,yes,754.8000000119209,42139.69999998808,pipe_new_007a.bmp,pipe_new_007a.bmp,,,14
15,1.0,1,13.544999837875366,test,1,m,43587.80000001192,bmadz,16455.000162124634,m,679,,18.0,no,688.1999999880791,42899.60000002384,pipe_new_026a.bmp,pipe_new_027a.bmp,,,15
16,1.0,1,14.277999877929688,test,1,z,44321.0,bmadz,15722.000122070312,z,714,,13.0,yes,728.0,43593.0,pipe_new_019a.bmp,pipe_new_019a.bmp,,,16
16,1.0,1,14.930999994277954,test,0,z,44974.30000001192,bmadz,15069.000005722046,m,644,,29.0,yes,648.1999999880791,44326.10000002384,pipe_new_043a.bmp,pipe_new_043a.bmp,,,17
17,1.0,1,15.690999984741211,test,1,z,45734.30000001192,bmadz,14309.000015258789,z,744,,25.0,yes,754.9000000357628,44979.39999997616,pipe_new_037a.bmp,pipe_new_037a.bmp,,,18
18,1.0,1,16.477999925613403,test,1,z,46520.89999997616,bmadz,13522.000074386597,z,778,,31.0,yes,781.5999999642372,45739.30000001192,pipe_new_046a.bmp,pipe_new_046a.bmp,,,19
19,1.0,1,17.197999954223633,test,1,m,47240.89999997616,bmadz,12802.000045776367,m,710,,10.0,no,715.1999999880791,46525.69999998808,pipe_new_014a.bmp,pipe_new_015a.bmp,,,20
20,1.0,1,17.891000032424927,test,1,z,47934.30000001192,bmadz,12108.999967575073,z,677,,19.0,yes,688.5,47245.80000001192,pipe_new_028a.bmp,pipe_new_028a.bmp,,,21
20,1.0,1,18.73099994659424,test,0,z,48774.30000001192,bmadz,11269.000053405762,m,824,,37.0,yes,834.9000000357628,47939.39999997616,pipe_new_055a.bmp,pipe_new_055a.bmp,,,22
21,1.0,1,19.770999908447266,test,1,m,49814.19999998808,bmadz,10229.000091552734,m,1023,,20.0,no,1034.5,48779.69999998808,pipe_new_029a.bmp,pipe_new_030a.bmp,,,23
22,1.0,1,20.598000049591064,test,1,z,50640.89999997616,bmadz,9401.999950408936,z,816,,35.0,yes,821.1999999880791,49819.69999998808,pipe_new_052a.bmp,pipe_new_052a.bmp,,,24
23,1.0,1,21.437999963760376,test,1,m,51480.69999998808,bmadz,8562.000036239624,m,831,,8.0,no,835.0999999642372,50645.60000002384,pipe_new_011a.bmp,pipe_new_012a.bmp,,,25
24,1.0,1,22.23799991607666,test,1,m,52280.69999998808,bmadz,7762.00008392334,m,790,,4.0,no,795.0,51485.69999998808,pipe_new_005a.bmp,pipe_new_006a.bmp,,,26
25,1.0,1,23.050999879837036,test,1,m,53094.0,bmadz,6949.000120162964,m,806,,16.0,no,808.6999999880791,52285.30000001192,pipe_new_023a.bmp,pipe_new_024a.bmp,,,27
26,1.0,1,23.770999908447266,test,1,m,53814.0,bmadz,6229.000091552734,m,711,,12.0,no,715.1000000238419,53098.89999997616,pipe_new_017a.bmp,pipe_new_018a.bmp,,,28
27,1.0,1,24.503999948501587,test,1,m,54547.39999997616,bmadz,5496.000051498413,m,714,,26.0,no,728.6999999880791,53818.69999998808,pipe_new_038a.bmp,pipe_new_039a.bmp,,,29
28,1.0,1,25.13100004196167,test,1,z,55174.10000002384,bmadz,4868.99995803833,z,618,,1.0,yes,621.8000000119209,54552.30000001192,pipe_new_001a.bmp,pipe_new_001a.bmp,,,30
29,1.0,1,25.838000059127808,test,1,m,55880.60000002384,bmadz,4161.999940872192,m,697,,30.0,no,701.7000000476837,55178.89999997616,pipe_new_044a.bmp,pipe_new_045a.bmp,,,31
30,1.0,1,26.530999898910522,test,1,z,56573.80000001192,bmadz,3469.0001010894775,z,676,,23.0,yes,688.0,55885.80000001192,pipe_new_034a.bmp,pipe_new_034a.bmp,,,32
31,1.0,1,27.171000003814697,test,1,z,57214.10000002384,bmadz,2828.9999961853027,z,627,,9.0,yes,636.8000000119209,56577.30000001192,pipe_new_013a.bmp,pipe_new_013a.bmp,,,33
32,1.0,1,27.783999919891357,test,1,m,57827.30000001192,bmadz,2216.0000801086426,m,599,,6.0,no,607.9000000357628,57219.39999997616,pipe_new_008a.bmp,pipe_new_009a.bmp,,,34
33,1.0,1,28.490999937057495,test,1,m,58533.89999997616,bmadz,1509.0000629425049,m,698,,24.0,no,701.6999999880791,57832.19999998808,pipe_new_035a.bmp,pipe_new_036a.bmp,,,35
34,1.0,1,29.063999891281128,test,1,z,59107.30000001192,bmadz,936.0001087188721,z,558,,21.0,yes,567.0,58540.30000001192,pipe_new_031a.bmp,pipe_new_031a.bmp,,,36
35,1.0,1,29.97099995613098,test,1,z,60013.89999997616,bmadz,29.000043869018555,z,890,,27.0,yes,901.5999999642372,59112.30000001192,pipe_new_040a.bmp,pipe_new_040a.bmp,,,37
35,1.0,1,30.01099991798401,test,0,m,60053.69999998808,bmadz,-10.999917984008789,None,32,,22.0,no,34.69999998807907,60019.0,pipe_new_032a.bmp,pipe_new_033a.bmp,,,38
1,2.0,2,0.9730000495910645,test,1,z,69214.10000002384,bmadz,29026.999950408936,z,960,,35.0,yes,9195.100000023842,60019.0,pipe_new_112a.bmp,pipe_new_112a.bmp,,,1
2,2.0,2,1.8259999752044678,test,1,m,70066.89999997616,bmadz,28174.000024795532,m,833,,14.0,no,10047.899999976158,60019.0,pipe_new_080a.bmp,pipe_new_081a.bmp,,,2
3,2.0,2,2.7190001010894775,test,1,z,70960.19999998808,bmadz,27280.999898910522,z,875,,9.0,yes,10941.199999988079,60019.0,pipe_new_073a.bmp,pipe_new_073a.bmp,,,3
4,2.0,2,3.4000000953674316,test,1,m,71640.5,bmadz,26599.99990463257,m,671,,12.0,no,11621.5,60019.0,pipe_new_077a.bmp,pipe_new_078a.bmp,,,4
5,2.0,2,4.026000022888184,test,1,z,72266.89999997616,bmadz,25973.999977111816,z,607,,25.0,yes,12247.899999976158,60019.0,pipe_new_097a.bmp,pipe_new_097a.bmp,,,5
6,2.0,2,4.706000089645386,test,1,m,72947.30000001192,bmadz,25293.999910354614,m,661,,22.0,no,12928.300000011921,60019.0,pipe_new_092a.bmp,pipe_new_093a.bmp,,,6
7,2.0,2,5.372999906539917,test,1,z,73613.5,bmadz,24627.000093460083,z,651,,37.0,yes,13594.5,60019.0,pipe_new_115a.bmp,pipe_new_115a.bmp,,,7
7,2.0,2,6.039000034332275,test,0,z,74280.19999998808,bmadz,23960.999965667725,m,648,,3.0,yes,14261.199999988079,60019.0,pipe_new_064a.bmp,pipe_new_064a.bmp,,,8
8,2.0,2,6.83899998664856,test,1,z,75080.19999998808,bmadz,23161.00001335144,z,782,,7.0,yes,15061.199999988079,60019.0,pipe_new_070a.bmp,pipe_new_070a.bmp,,,9
9,2.0,2,7.559999942779541,test,1,z,75800.60000002384,bmadz,22440.00005722046,z,701,,17.0,yes,15781.600000023842,60019.0,pipe_new_085a.bmp,pipe_new_085a.bmp,,,10
10,2.0,2,8.211999893188477,test,1,m,76453.39999997616,bmadz,21788.000106811523,m,636,,16.0,no,16434.399999976158,60019.0,pipe_new_083a.bmp,pipe_new_084a.bmp,,,11
11,2.0,2,9.013000011444092,test,1,z,77253.60000002384,bmadz,20986.99998855591,z,785,,1.0,yes,17234.600000023842,60019.0,pipe_new_061a.bmp,pipe_new_061a.bmp,,,12
12,2.0,2,10.425999879837036,test,1,m,78667.19999998808,bmadz,19574.000120162964,m,1392,,34.0,no,18648.19999998808,60019.0,pipe_new_110a.bmp,pipe_new_111a.bmp,,,13
13,2.0,2,11.466000080108643,test,1,m,79706.60000002384,bmadz,18533.999919891357,m,1029,,32.0,no,19687.600000023842,60019.0,pipe_new_107a.bmp,pipe_new_108a.bmp,,,14
14,2.0,2,12.492000102996826,test,1,m,80733.30000001192,bmadz,17507.999897003174,m,1012,,2.0,no,20714.30000001192,60019.0,pipe_new_062a.bmp,pipe_new_063a.bmp,,,15
15,2.0,2,13.438999891281128,test,1,z,81680.0,bmadz,16561.000108718872,z,937,,39.0,yes,21661.0,60019.0,pipe_new_118a.bmp,pipe_new_118a.bmp,,,16
16,2.0,2,14.185999870300293,test,1,m,82426.5,bmadz,15814.000129699707,m,737,,20.0,no,22407.5,60019.0,pipe_new_089a.bmp,pipe_new_090a.bmp,,,17
17,2.0,2,14.825999975204468,test,1,z,83066.60000002384,bmadz,15174.000024795532,z,621,,33.0,yes,23047.600000023842,60019.0,pipe_new_109a.bmp,pipe_new_109a.bmp,,,18
18,2.0,2,15.678999900817871,test,1,z,83919.80000001192,bmadz,14321.000099182129,z,835,,27.0,yes,23900.80000001192,60019.0,pipe_new_100a.bmp,pipe_new_100a.bmp,,,19
19,2.0,2,16.34599995613098,test,1,m,84586.5,bmadz,13654.000043869019,m,647,,8.0,no,24567.5,60019.0,pipe_new_071a.bmp,pipe_new_072a.bmp,,,20
20,2.0,2,17.039000034332275,test,1,z,85279.80000001192,bmadz,12960.999965667725,z,675,,19.0,yes,25260.80000001192,60019.0,pipe_new_088a.bmp,pipe_new_088a.bmp,,,21
21,2.0,2,17.719000101089478,test,1,m,85960.39999997616,bmadz,12280.999898910522,m,669,,38.0,no,25941.399999976158,60019.0,pipe_new_116a.bmp,pipe_new_117a.bmp,,,22
22,2.0,2,18.412999868392944,test,1,z,86653.5,bmadz,11587.000131607056,z,678,,31.0,yes,26634.5,60019.0,pipe_new_106a.bmp,pipe_new_106a.bmp,,,23
23,2.0,2,19.092000007629395,test,1,z,87333.0,bmadz,10907.999992370605,z,664,,23.0,yes,27314.0,60019.0,pipe_new_094a.bmp,pipe_new_094a.bmp,,,24
24,2.0,2,19.691999912261963,test,1,z,87933.10000002384,bmadz,10308.000087738037,z,587,,13.0,yes,27914.100000023842,60019.0,pipe_new_079a.bmp,pipe_new_079a.bmp,,,25
25,2.0,2,20.358999967575073,test,1,m,88599.69999998808,bmadz,9641.000032424927,m,648,,4.0,no,28580.69999998808,60019.0,pipe_new_065a.bmp,pipe_new_066a.bmp,,,26
26,2.0,2,21.06500005722046,test,1,z,89306.39999997616,bmadz,8934.999942779541,z,697,,29.0,yes,29287.399999976158,60019.0,pipe_new_103a.bmp,pipe_new_103a.bmp,,,27
27,2.0,2,22.198999881744385,test,1,m,90439.69999998808,bmadz,7801.000118255615,m,1123,,40.0,no,30420.69999998808,60019.0,pipe_new_119a.bmp,pipe_new_120a.bmp,,,28
28,2.0,2,22.865000009536743,test,1,z,91106.5,bmadz,7134.999990463257,z,649,,5.0,yes,31087.5,60019.0,pipe_new_067a.bmp,pipe_new_067a.bmp,,,29
29,2.0,2,23.57200002670288,test,1,m,91813.0,bmadz,6427.999973297119,m,690,,24.0,no,31794.0,60019.0,pipe_new_095a.bmp,pipe_new_096a.bmp,,,30
30,2.0,2,24.358999967575073,test,1,m,92599.60000002384,bmadz,5641.000032424927,m,767,,18.0,no,32580.600000023842,60019.0,pipe_new_086a.bmp,pipe_new_087a.bmp,,,31
31,2.0,2,25.01200008392334,test,1,m,93252.80000001192,bmadz,4987.99991607666,m,638,,6.0,no,33233.80000001192,60019.0,pipe_new_068a.bmp,pipe_new_069a.bmp,,,32
32,2.0,2,25.61299991607666,test,1,m,93854.0,bmadz,4387.00008392334,m,596,,28.0,no,33835.0,60019.0,pipe_new_101a.bmp,pipe_new_102a.bmp,,,33
33,2.0,2,26.22499990463257,test,1,m,94466.19999998808,bmadz,3775.0000953674316,m,602,,30.0,no,34447.19999998808,60019.0,pipe_new_104a.bmp,pipe_new_105a.bmp,,,34
34,2.0,2,26.825000047683716,test,1,z,95066.30000001192,bmadz,3174.999952316284,z,582,,11.0,yes,35047.30000001192,60019.0,pipe_new_076a.bmp,pipe_new_076a.bmp,,,35
35,2.0,2,27.492000102996826,test,1,z,95732.80000001192,bmadz,2507.999897003174,z,652,,21.0,yes,35713.80000001192,60019.0,pipe_new_091a.bmp,pipe_new_091a.bmp,,,36
36,2.0,2,28.144999980926514,test,1,m,96386.19999998808,bmadz,1855.0000190734863,m,644,,10.0,no,36367.19999998808,60019.0,pipe_new_074a.bmp,pipe_new_075a.bmp,,,37
37,2.0,2,28.799000024795532,test,1,z,97040.0,bmadz,1200.9999752044678,z,645,,15.0,yes,37021.0,60019.0,pipe_new_082a.bmp,pipe_new_082a.bmp,,,38
38,2.0,2,29.55900001525879,test,1,m,97799.5,bmadz,440.99998474121094,m,741,,26.0,no,37780.5,60019.0,pipe_new_098a.bmp,pipe_new_099a.bmp,,,39
38,2.0,2,30.01200008392334,test,0,m,98253.10000002384,bmadz,-12.000083923339844,None,446,,36.0,no,38234.10000002384,60019.0,pipe_new_113a.bmp,pipe_new_114a.bmp,,,40
