acc_mean,block,block_c,block_dur,condition,correct,correct_response,endtime,multichar_response,resp_time,response,response_time,response_time_practice_response,row_sel,same,start_end,starttime,stim1,stim2,subject_id,time_practice,trial
0,,0,0.0,,undefined,,,ct,30000.0,enter,1741,,,,,,,,,,0
1,1.0,1,3.2130000591278076,test,1,z,70697.40000000224,ct,26786.999940872192,z,3204,,15.0,yes,3207.5,67489.90000000224,pipe_new_022a.bmp,pipe_new_022a.bmp,,,1
2,1.0,1,6.200000047683716,test,1,z,73684.40000000224,ct,23799.999952316284,z,2967,,13.0,yes,2981.5,70702.90000000224,pipe_new_019a.bmp,pipe_new_019a.bmp,,,2
3,1.0,1,8.653000116348267,test,1,z,76137.10000000149,ct,21346.999883651733,z,2445,,11.0,yes,2448.0,73689.10000000149,pipe_new_016a.bmp,pipe_new_016a.bmp,,,3
4,1.0,1,10.812999963760376,test,1,m,78297.10000000149,ct,19187.000036239624,m,2153,,22.0,no,2155.300000000745,76141.80000000075,pipe_new_032a.bmp,pipe_new_033a.bmp,,,4
5,1.0,1,12.132999897003174,test,1,m,79617.10000000149,ct,17867.000102996826,m,1303,,30.0,no,1314.5,78302.60000000149,pipe_new_044a.bmp,pipe_new_045a.bmp,,,5
6,1.0,1,13.413000106811523,test,1,m,80897.10000000149,ct,16586.999893188477,m,1263,,32.0,no,1274.8999999985099,79622.20000000298,pipe_new_047a.bmp,pipe_new_048a.bmp,,,6
7,1.0,1,15.0,test,1,z,82483.80000000075,ct,15000.0,z,1567,,29.0,yes,1581.199999999255,80902.60000000149,pipe_new_043a.bmp,pipe_new_043a.bmp,,,7
8,1.0,1,16.06599998474121,test,1,m,83550.40000000224,ct,13934.000015258789,m,1053,,18.0,no,1061.1000000014901,82489.30000000075,pipe_new_026a.bmp,pipe_new_027a.bmp,,,8
9,1.0,1,17.092999935150146,test,1,m,84576.80000000075,ct,12907.000064849854,m,1010,,20.0,no,1021.8000000007451,83555.0,pipe_new_029a.bmp,pipe_new_030a.bmp,,,9
10,1.0,1,17.89300012588501,test,1,z,85377.10000000149,ct,12106.99987411499,z,784,,39.0,yes,795.1999999992549,84581.90000000224,pipe_new_058a.bmp,pipe_new_058a.bmp,,,10
11,1.0,1,18.973000049591064,test,1,z,86456.80000000075,ct,11026.999950408936,z,1072,,33.0,yes,1074.3999999985099,85382.40000000224,pipe_new_049a.bmp,pipe_new_049a.bmp,,,11
11,1.0,1,20.292999982833862,test,0,z,87776.90000000224,ct,9707.000017166138,m,1305,,19.0,yes,1315.5,86461.40000000224,pipe_new_028a.bmp,pipe_new_028a.bmp,,,12
12,1.0,1,21.812999963760376,test,1,z,89296.90000000224,ct,8187.000036239624,z,1504,,1.0,yes,1514.800000000745,87782.10000000149,pipe_new_001a.bmp,pipe_new_001a.bmp,,,13
13,1.0,1,23.026000022888184,test,1,z,90510.10000000149,ct,6973.999977111816,z,1201,,17.0,yes,1208.800000000745,89301.30000000075,pipe_new_025a.bmp,pipe_new_025a.bmp,,,14
14,1.0,1,24.06599998474121,test,1,m,91550.0,ct,5934.000015258789,m,1026,,36.0,no,1034.699999999255,90515.30000000075,pipe_new_053a.bmp,pipe_new_054a.bmp,,,15
15,1.0,1,25.05299997329712,test,1,z,92536.70000000298,ct,4947.000026702881,z,979,,9.0,yes,982.8000000007451,91553.90000000224,pipe_new_013a.bmp,pipe_new_013a.bmp,,,16
16,1.0,1,25.918999910354614,test,1,m,93403.20000000298,ct,4081.0000896453857,m,857,,40.0,no,862.8000000007451,92540.40000000224,pipe_new_059a.bmp,pipe_new_060a.bmp,,,17
17,1.0,1,26.719000101089478,test,1,m,94203.20000000298,ct,3280.9998989105225,m,789,,26.0,no,795.1000000014901,93408.10000000149,pipe_new_038a.bmp,pipe_new_039a.bmp,,,18
18,1.0,1,27.905999898910522,test,1,m,95389.90000000224,ct,2094.0001010894775,m,1174,,28.0,no,1181.800000000745,94208.10000000149,pipe_new_041a.bmp,pipe_new_042a.bmp,,,19
19,1.0,1,28.759000062942505,test,1,m,96243.10000000149,ct,1240.9999370574951,m,834,,2.0,no,848.0,95395.10000000149,pipe_new_002a.bmp,pipe_new_003a.bmp,,,20
20,1.0,1,29.759000062942505,test,1,m,97243.40000000224,ct,240.99993705749512,m,990,,10.0,no,995.6999999992549,96247.70000000298,pipe_new_014a.bmp,pipe_new_015a.bmp,,,21
20,1.0,1,30.013000011444092,test,0,z,97496.80000000075,ct,-13.000011444091797,None,246,,7.0,yes,248.69999999925494,97248.10000000149,pipe_new_010a.bmp,pipe_new_010a.bmp,,,22
1,2.0,2,11.933000087738037,test,1,z,120562.60000000149,ct,18066.999912261963,z,11916,,19.0,yes,23314.5,97248.10000000149,pipe_new_088a.bmp,pipe_new_088a.bmp,,,1
2,2.0,2,13.372000217437744,test,1,m,122002.30000000075,ct,16627.999782562256,m,1421,,38.0,no,24754.199999999255,97248.10000000149,pipe_new_116a.bmp,pipe_new_117a.bmp,,,2
3,2.0,2,14.83899998664856,test,1,z,123468.90000000224,ct,15161.00001335144,z,1455,,29.0,yes,26220.800000000745,97248.10000000149,pipe_new_103a.bmp,pipe_new_103a.bmp,,,3
4,2.0,2,15.466000080108643,test,1,m,124095.70000000298,ct,14533.999919891357,m,611,,28.0,no,26847.60000000149,97248.10000000149,pipe_new_101a.bmp,pipe_new_102a.bmp,,,4
5,2.0,2,16.359000205993652,test,1,z,124988.90000000224,ct,13640.999794006348,z,881,,7.0,yes,27740.800000000745,97248.10000000149,pipe_new_070a.bmp,pipe_new_070a.bmp,,,5
6,2.0,2,17.132000207901,test,1,m,125762.20000000298,ct,12867.999792098999,m,757,,4.0,no,28514.10000000149,97248.10000000149,pipe_new_065a.bmp,pipe_new_066a.bmp,,,6
7,2.0,2,17.919000148773193,test,1,m,126548.80000000075,ct,12080.999851226807,m,766,,20.0,no,29300.699999999255,97248.10000000149,pipe_new_089a.bmp,pipe_new_090a.bmp,,,7
8,2.0,2,18.66600012779236,test,1,m,127295.90000000224,ct,11333.999872207642,m,732,,24.0,no,30047.800000000745,97248.10000000149,pipe_new_095a.bmp,pipe_new_096a.bmp,,,8
9,2.0,2,19.51900005340576,test,1,m,128148.90000000224,ct,10480.999946594238,m,833,,2.0,no,30900.800000000745,97248.10000000149,pipe_new_062a.bmp,pipe_new_063a.bmp,,,9
10,2.0,2,20.186000108718872,test,1,m,128815.5,ct,9813.999891281128,m,653,,30.0,no,31567.39999999851,97248.10000000149,pipe_new_104a.bmp,pipe_new_105a.bmp,,,10
11,2.0,2,20.83899998664856,test,1,z,129468.70000000298,ct,9161.00001335144,z,644,,1.0,yes,32220.60000000149,97248.10000000149,pipe_new_061a.bmp,pipe_new_061a.bmp,,,11
12,2.0,2,21.546000003814697,test,1,z,130176.0,ct,8453.999996185303,z,694,,21.0,yes,32927.89999999851,97248.10000000149,pipe_new_091a.bmp,pipe_new_091a.bmp,,,12
13,2.0,2,22.252000093460083,test,1,m,130882.10000000149,ct,7747.999906539917,m,688,,14.0,no,33634.0,97248.10000000149,pipe_new_080a.bmp,pipe_new_081a.bmp,,,13
14,2.0,2,23.132000207901,test,1,m,131762.0,ct,6867.999792098999,m,863,,32.0,no,34513.89999999851,97248.10000000149,pipe_new_107a.bmp,pipe_new_108a.bmp,,,14
15,2.0,2,23.972000122070312,test,1,m,132602.1000000015,ct,6027.9998779296875,m,829,,6.0,no,35354.0,97248.10000000149,pipe_new_068a.bmp,pipe_new_069a.bmp,,,15
16,2.0,2,24.759000062942505,test,1,z,133388.80000000075,ct,5240.999937057495,z,776,,13.0,yes,36140.699999999255,97248.10000000149,pipe_new_079a.bmp,pipe_new_079a.bmp,,,16
17,2.0,2,25.705000162124634,test,1,z,134335.20000000298,ct,4294.999837875366,z,933,,15.0,yes,37087.10000000149,97248.10000000149,pipe_new_082a.bmp,pipe_new_082a.bmp,,,17
18,2.0,2,26.479000091552734,test,1,z,135109.30000000075,ct,3520.9999084472656,z,754,,5.0,yes,37861.199999999255,97248.10000000149,pipe_new_067a.bmp,pipe_new_067a.bmp,,,18
19,2.0,2,27.11900019645691,test,1,m,135749.30000000075,ct,2880.999803543091,m,619,,16.0,no,38501.199999999255,97248.10000000149,pipe_new_083a.bmp,pipe_new_084a.bmp,,,19
20,2.0,2,27.932000160217285,test,1,z,136561.90000000224,ct,2067.999839782715,z,796,,25.0,yes,39313.800000000745,97248.10000000149,pipe_new_097a.bmp,pipe_new_097a.bmp,,,20
20,2.0,2,28.6780002117157,test,0,z,137308.40000000224,ct,1321.9997882843018,m,735,,27.0,yes,40060.300000000745,97248.10000000149,pipe_new_100a.bmp,pipe_new_100a.bmp,,,21
21,2.0,2,29.692000150680542,test,1,m,138322.0,ct,307.999849319458,m,996,,18.0,no,41073.89999999851,97248.10000000149,pipe_new_086a.bmp,pipe_new_087a.bmp,,,22
21,2.0,2,30.01200008392334,test,0,m,138642.40000000224,ct,-12.000083923339844,None,312,,34.0,no,41394.300000000745,97248.10000000149,pipe_new_110a.bmp,pipe_new_111a.bmp,,,23
