acc_mean,block,block_c,block_dur,condition,correct,correct_response,endtime,multichar_response,resp_time,response,response_time,response_time_practice_response,row_sel,same,start_end,starttime,stim1,stim2,subject_id,time_practice,trial
0,,0,0.0,,undefined,,,mv,30000.0,enter,2018,,,,,,,,,,0
1,1.0,1,1.7179999351501465,test,1,z,49767.0,mv,28282.000064849854,z,1682,,31.0,yes,1703.0,48064.0,pipe_new_046a.bmp,pipe_new_046a.bmp,,,1
2,1.0,1,3.6510000228881836,test,1,z,51700.0,mv,26348.999977111816,z,1910,,15.0,yes,1921.0,49779.0,pipe_new_022a.bmp,pipe_new_022a.bmp,,,2
3,1.0,1,4.367000102996826,test,1,m,52417.0,mv,25632.999897003174,m,696,,18.0,no,705.0,51712.0,pipe_new_026a.bmp,pipe_new_027a.bmp,,,3
4,1.0,1,5.4670000076293945,test,1,z,53517.0,mv,24532.999992370605,z,1074,,7.0,yes,1093.0,52424.0,pipe_new_010a.bmp,pipe_new_010a.bmp,,,4
5,1.0,1,6.549999952316284,test,1,m,54600.0,mv,23450.000047683716,m,1061,,12.0,no,1075.0,53525.0,pipe_new_017a.bmp,pipe_new_018a.bmp,,,5
6,1.0,1,7.550999879837036,test,1,z,55600.0,mv,22449.000120162964,z,975,,35.0,yes,991.9999999999927,54608.00000000001,pipe_new_052a.bmp,pipe_new_052a.bmp,,,6
7,1.0,1,8.250999927520752,test,1,z,56300.00000000001,mv,21749.000072479248,z,677,,25.0,yes,689.0,55611.00000000001,pipe_new_037a.bmp,pipe_new_037a.bmp,,,7
8,1.0,1,8.983999967575073,test,1,z,57033.0,mv,21016.000032424927,z,711,,9.0,yes,722.0,56311.0,pipe_new_013a.bmp,pipe_new_013a.bmp,,,8
9,1.0,1,9.800999879837036,test,1,z,57850.0,mv,20199.000120162964,z,789,,39.0,yes,807.0,57043.0,pipe_new_058a.bmp,pipe_new_058a.bmp,,,9
10,1.0,1,10.783999919891357,test,1,z,58833.0,mv,19216.000080108643,z,958,,13.0,yes,971.9999999999927,57861.00000000001,pipe_new_019a.bmp,pipe_new_019a.bmp,,,10
11,1.0,1,11.700999975204468,test,1,m,59750.0,mv,18299.000024795532,m,891,,14.0,no,906.0,58844.0,pipe_new_020a.bmp,pipe_new_021a.bmp,,,11
12,1.0,1,12.41700005531311,test,1,m,60467.0,mv,17582.99994468689,m,688,,26.0,no,707.0,59760.0,pipe_new_038a.bmp,pipe_new_039a.bmp,,,12
13,1.0,1,13.684000015258789,test,1,m,61733.00000000001,mv,16315.999984741211,m,1245,,40.0,no,1255.0000000000073,60478.0,pipe_new_059a.bmp,pipe_new_060a.bmp,,,13
14,1.0,1,14.400000095367432,test,1,z,62450.0,mv,15599.999904632568,z,686,,23.0,yes,707.9999999999927,61742.00000000001,pipe_new_034a.bmp,pipe_new_034a.bmp,,,14
15,1.0,1,15.299999952316284,test,1,z,63350.0,mv,14700.000047683716,z,885,,19.0,yes,893.0,62457.0,pipe_new_028a.bmp,pipe_new_028a.bmp,,,15
16,1.0,1,16.050999879837036,test,1,m,64099.99999999999,mv,13949.000120162964,m,723,,30.0,no,739.9999999999927,63360.0,pipe_new_044a.bmp,pipe_new_045a.bmp,,,16
17,1.0,1,17.18400001525879,test,1,m,65233.99999999999,mv,12815.999984741211,m,1102,,38.0,no,1123.9999999999927,64110.0,pipe_new_056a.bmp,pipe_new_057a.bmp,,,17
18,1.0,1,17.91700005531311,test,1,z,65967.0,mv,12082.99994468689,z,708,,27.0,yes,724.9999999999927,65242.00000000001,pipe_new_040a.bmp,pipe_new_040a.bmp,,,18
19,1.0,1,18.750999927520752,test,1,z,66800.0,mv,11249.000072479248,z,812,,17.0,yes,824.0,65976.0,pipe_new_025a.bmp,pipe_new_025a.bmp,,,19
20,1.0,1,19.45199990272522,test,1,m,67502.0,mv,10548.00009727478,m,683,,34.0,no,692.0,66810.0,pipe_new_050a.bmp,pipe_new_051a.bmp,,,20
21,1.0,1,20.300999879837036,test,1,z,68350.00000000001,mv,9699.000120162964,z,819,,37.0,yes,839.0000000000146,67511.0,pipe_new_055a.bmp,pipe_new_055a.bmp,,,21
22,1.0,1,21.41700005531311,test,1,m,69466.00000000001,mv,8582.99994468689,m,1091,,8.0,no,1106.0000000000146,68360.0,pipe_new_011a.bmp,pipe_new_012a.bmp,,,22
23,1.0,1,22.58299994468689,test,1,m,70633.0,mv,7417.00005531311,m,1145,,20.0,no,1160.9999999999854,69472.00000000001,pipe_new_029a.bmp,pipe_new_030a.bmp,,,23
24,1.0,1,23.16700005531311,test,1,m,71216.00000000001,mv,6832.99994468689,m,566,,36.0,no,580.0000000000146,70636.0,pipe_new_053a.bmp,pipe_new_054a.bmp,,,24
25,1.0,1,24.033999919891357,test,1,m,72083.0,mv,5966.000080108643,m,854,,28.0,no,860.9999999999854,71222.00000000001,pipe_new_041a.bmp,pipe_new_042a.bmp,,,25
26,1.0,1,24.816999912261963,test,1,m,72866.0,mv,5183.000087738037,m,761,,6.0,no,776.0,72090.0,pipe_new_008a.bmp,pipe_new_009a.bmp,,,26
27,1.0,1,25.6010000705719,test,1,z,73650.0,mv,4398.999929428101,z,774,,21.0,yes,780.0,72870.0,pipe_new_031a.bmp,pipe_new_031a.bmp,,,27
28,1.0,1,26.51699995994568,test,1,z,74567.0,mv,3483.0000400543213,z,891,,33.0,yes,908.0,73659.0,pipe_new_049a.bmp,pipe_new_049a.bmp,,,28
29,1.0,1,27.299999952316284,test,1,m,75350.00000000001,mv,2700.000047683716,m,753,,24.0,no,771.0,74579.00000000001,pipe_new_035a.bmp,pipe_new_036a.bmp,,,29
29,1.0,1,28.43400001525879,test,0,m,76483.0,mv,1565.999984741211,z,1104,,22.0,no,1125.0,75358.0,pipe_new_032a.bmp,pipe_new_033a.bmp,,,30
29,1.0,1,30.01799988746643,test,0,z,78067.0,mv,-17.999887466430664,None,1567,,5.0,yes,1574.0,76493.0,pipe_new_007a.bmp,pipe_new_007a.bmp,,,31
0,2.0,2,1.5,test,0,m,85967.0,mv,28500.0,z,1478,,16.0,no,9474.0,76493.0,pipe_new_083a.bmp,pipe_new_084a.bmp,,,1
1,2.0,2,3.200000047683716,test,1,m,87667.0,mv,26799.999952316284,m,1670,,24.0,no,11174.0,76493.0,pipe_new_095a.bmp,pipe_new_096a.bmp,,,2
2,2.0,2,4.25,test,1,z,88717.0,mv,25750.0,z,1021,,11.0,yes,12224.0,76493.0,pipe_new_076a.bmp,pipe_new_076a.bmp,,,3
3,2.0,2,6.2829999923706055,test,1,m,90750.0,mv,23717.000007629395,m,2005,,12.0,no,14257.0,76493.0,pipe_new_077a.bmp,pipe_new_078a.bmp,,,4
4,2.0,2,6.5329999923706055,test,1,m,91000.0,mv,23467.000007629395,m,224,,14.0,no,14507.0,76493.0,pipe_new_080a.bmp,pipe_new_081a.bmp,,,5
5,2.0,2,7.684000015258789,test,1,m,92150.0,mv,22315.99998474121,m,1124,,4.0,no,15657.0,76493.0,pipe_new_065a.bmp,pipe_new_066a.bmp,,,6
6,2.0,2,8.483000040054321,test,1,m,92950.0,mv,21516.99995994568,m,768,,38.0,no,16457.0,76493.0,pipe_new_116a.bmp,pipe_new_117a.bmp,,,7
7,2.0,2,10.08299994468689,test,1,m,94550.0,mv,19917.00005531311,m,1576,,8.0,no,18057.0,76493.0,pipe_new_071a.bmp,pipe_new_072a.bmp,,,8
8,2.0,2,10.783999919891357,test,1,z,95250.0,mv,19216.000080108643,z,682,,23.0,yes,18757.0,76493.0,pipe_new_094a.bmp,pipe_new_094a.bmp,,,9
9,2.0,2,11.566999912261963,test,1,z,96033.0,mv,18433.000087738037,z,757,,37.0,yes,19540.0,76493.0,pipe_new_115a.bmp,pipe_new_115a.bmp,,,10
10,2.0,2,12.633999824523926,test,1,z,97100.00000000001,mv,17366.000175476074,z,1044,,33.0,yes,20607.000000000015,76493.0,pipe_new_109a.bmp,pipe_new_109a.bmp,,,11
11,2.0,2,13.432999849319458,test,1,m,97900.0,mv,16567.000150680542,m,768,,6.0,no,21407.0,76493.0,pipe_new_068a.bmp,pipe_new_069a.bmp,,,12
12,2.0,2,14.217000007629395,test,1,m,98683.0,mv,15782.999992370605,m,765,,40.0,no,22190.0,76493.0,pipe_new_119a.bmp,pipe_new_120a.bmp,,,13
13,2.0,2,15.099999904632568,test,1,m,99566.0,mv,14900.000095367432,m,858,,10.0,no,23073.0,76493.0,pipe_new_074a.bmp,pipe_new_075a.bmp,,,14
14,2.0,2,15.799999952316284,test,1,z,100267.0,mv,14200.000047683716,z,678,,35.0,yes,23774.0,76493.0,pipe_new_112a.bmp,pipe_new_112a.bmp,,,15
14,2.0,2,16.5,test,0,m,100967.0,mv,13500.0,z,670,,36.0,no,24474.0,76493.0,pipe_new_113a.bmp,pipe_new_114a.bmp,,,16
15,2.0,2,17.58299994468689,test,1,z,102050.0,mv,12417.00005531311,z,1055,,9.0,yes,25557.0,76493.0,pipe_new_073a.bmp,pipe_new_073a.bmp,,,17
16,2.0,2,18.33299994468689,test,1,z,102800.0,mv,11667.00005531311,z,730,,21.0,yes,26307.0,76493.0,pipe_new_091a.bmp,pipe_new_091a.bmp,,,18
17,2.0,2,19.116999864578247,test,1,m,103583.0,mv,10883.000135421753,m,753,,22.0,no,27090.0,76493.0,pipe_new_092a.bmp,pipe_new_093a.bmp,,,19
17,2.0,2,20.182999849319458,test,0,m,104650.0,mv,9817.000150680542,z,1049,,28.0,no,28157.0,76493.0,pipe_new_101a.bmp,pipe_new_102a.bmp,,,20
18,2.0,2,22.116999864578247,test,1,z,106583.0,mv,7883.000135421753,z,1913,,17.0,yes,30090.0,76493.0,pipe_new_085a.bmp,pipe_new_085a.bmp,,,21
19,2.0,2,22.782999992370605,test,1,m,107250.0,mv,7217.0000076293945,m,633,,20.0,no,30757.0,76493.0,pipe_new_089a.bmp,pipe_new_090a.bmp,,,22
20,2.0,2,23.682999849319458,test,1,z,108150.0,mv,6317.000150680542,z,880,,27.0,yes,31657.0,76493.0,pipe_new_100a.bmp,pipe_new_100a.bmp,,,23
21,2.0,2,24.84999990463257,test,1,z,109317.0,mv,5150.000095367432,z,1149,,39.0,yes,32824.0,76493.0,pipe_new_118a.bmp,pipe_new_118a.bmp,,,24
22,2.0,2,25.66599988937378,test,1,m,110133.0,mv,4334.000110626221,m,788,,2.0,no,33640.0,76493.0,pipe_new_062a.bmp,pipe_new_063a.bmp,,,25
23,2.0,2,26.983999967575073,test,1,m,111450.0,mv,3016.0000324249268,m,1303,,34.0,no,34957.0,76493.0,pipe_new_110a.bmp,pipe_new_111a.bmp,,,26
24,2.0,2,28.0,test,1,m,112467.0,mv,2000.0,m,988,,26.0,no,35974.0,76493.0,pipe_new_098a.bmp,pipe_new_099a.bmp,,,27
24,2.0,2,28.08299994468689,test,0,z,112550.0,mv,1917.0000553131104,m,65,,3.0,yes,36057.0,76493.0,pipe_new_064a.bmp,pipe_new_064a.bmp,,,28
24,2.0,2,30.01699995994568,test,0,z,114484.00000000001,mv,-16.99995994567871,None,1918,,5.0,yes,37991.000000000015,76493.0,pipe_new_067a.bmp,pipe_new_067a.bmp,,,29
